PE UV       SUBTECH     SPECTRUM    ASCII       PEDS        4.00        
   -1
100% or 0 Absorbance Baseline.Correction.Raw.asc
22/05/24
03:35:10.00
22/05/24
03:35:10.00
Analyst

250.000000
1
Lambda 1050
1050L1210281
PerkinElmer UV WinLab 6.0.4.0738 / 1.61.00 Lambda 900

0
0
3350/servo 860.8/5
0
0
UV/VIS
0
1
1
DoubleDePol,CommonBeamDepol,RBeamAtt,SBeamAtt,150mm sphere / downward view
0
0
0
0
Program
Program
3350/servo 860.8/5
3350/0.24 860.8/0.16
3350/0.24 860.8/0.16
0
5
 
 
 
0
 
860.8
319.2
860.8
Front
100
on
S:100 R:100
0
0
0
0
 
0
 
 
 
0
 
 
0
0
0
0
0
 
 
 
 
0
0


0
0
#HDR
-1
-1
#GR
nm
%R
1.0
0.0
2000.000000
-10.000000
176
8
58.852100
33.240900
#DATA
2000.000000	50.983500
1990.000000	51.704800
1980.000000	51.688000
1970.000000	52.052500
1960.000000	52.050000
1950.000000	52.214700
1940.000000	52.176700
1930.000000	50.851400
1920.000000	49.628500
1910.000000	48.595700
1900.000000	47.764400
1890.000000	48.778200
1880.000000	50.682600
1870.000000	49.573900
1860.000000	51.151300
1850.000000	50.732700
1840.000000	51.513200
1830.000000	51.469100
1820.000000	51.613500
1810.000000	51.908300
1800.000000	52.293500
1790.000000	53.174200
1780.000000	52.990900
1770.000000	52.755400
1760.000000	53.104800
1750.000000	53.116000
1740.000000	52.974300
1730.000000	52.821900
1720.000000	52.462800
1710.000000	53.034500
1700.000000	52.840900
1690.000000	53.068300
1680.000000	52.907300
1670.000000	53.086100
1660.000000	53.517200
1650.000000	53.362700
1640.000000	53.208400
1630.000000	53.020500
1620.000000	53.922800
1610.000000	53.397400
1600.000000	53.420400
1590.000000	53.537100
1580.000000	53.343400
1570.000000	53.754700
1560.000000	53.530400
1550.000000	53.349600
1540.000000	53.822300
1530.000000	53.559900
1520.000000	53.650200
1510.000000	53.813500
1500.000000	53.539500
1490.000000	53.798400
1480.000000	53.914500
1470.000000	54.230000
1460.000000	53.545900
1450.000000	53.145700
1440.000000	53.629200
1430.000000	53.446900
1420.000000	53.107200
1410.000000	52.586400
1400.000000	51.546500
1390.000000	49.431200
1380.000000	49.442900
1370.000000	52.996900
1360.000000	53.638000
1350.000000	53.835700
1340.000000	53.805200
1330.000000	53.838700
1320.000000	53.928900
1310.000000	54.284400
1300.000000	54.493600
1290.000000	54.209000
1280.000000	54.418400
1270.000000	54.808700
1260.000000	54.594700
1250.000000	54.558700
1240.000000	53.790400
1230.000000	54.712900
1220.000000	54.870900
1210.000000	54.614000
1200.000000	54.883400
1190.000000	54.568900
1180.000000	54.743400
1170.000000	55.447300
1160.000000	55.075900
1150.000000	55.083100
1140.000000	55.396700
1130.000000	55.539400
1120.000000	55.379500
1110.000000	55.022700
1100.000000	55.161400
1090.000000	55.309800
1080.000000	55.449000
1070.000000	55.429700
1060.000000	55.731100
1050.000000	55.482800
1040.000000	56.255900
1030.000000	56.168200
1020.000000	56.119400
1010.000000	56.495000
1000.000000	56.449600
990.000000	56.618400
980.000000	56.475800
970.000000	56.985900
960.000000	57.447900
950.000000	57.142100
940.000000	57.184300
930.000000	57.517300
920.000000	58.436300
910.000000	58.293700
900.000000	58.532800
890.000000	58.852100
880.000000	58.384000
870.000000	57.798700
860.000000	57.778100
850.000000	55.642800
840.000000	44.425300
830.000000	45.397700
820.000000	45.814800
810.000000	46.086900
800.000000	46.161600
790.000000	45.928700
780.000000	45.759600
770.000000	45.654400
760.000000	45.465700
750.000000	45.370800
740.000000	45.228600
730.000000	45.112600
720.000000	45.013700
710.000000	44.865200
700.000000	44.808200
690.000000	44.850200
680.000000	44.937700
670.000000	44.512500
660.000000	44.462200
650.000000	44.443800
640.000000	44.423800
630.000000	44.446200
620.000000	44.450600
610.000000	44.463800
600.000000	44.540600
590.000000	44.582500
580.000000	44.638000
570.000000	44.799400
560.000000	45.114400
550.000000	44.369700
540.000000	44.409300
530.000000	44.550700
520.000000	44.880200
510.000000	45.253900
500.000000	44.861600
490.000000	43.447500
480.000000	42.982900
470.000000	44.456500
460.000000	44.932400
450.000000	44.425900
440.000000	44.087200
430.000000	44.209800
420.000000	44.267300
410.000000	44.305200
400.000000	44.262200
390.000000	44.092100
380.000000	43.783400
370.000000	43.436500
360.000000	43.315500
350.000000	43.083300
340.000000	42.460400
330.000000	41.888600
320.000000	41.151400
310.000000	39.561800
300.000000	37.375500
290.000000	36.602500
280.000000	35.850300
270.000000	35.368900
260.000000	34.695200
250.000000	33.240900
