PE UV       SUBTECH     SPECTRUM    ASCII       PEDS        4.00        
   -1
No1_reference_centerSpot_Gain3.Sample.Raw.asc
22/05/24
03:09:11.00
22/05/24
03:09:11.00
Analyst

250.000000
1
Lambda 1050
1050L1210281
PerkinElmer UV WinLab 6.0.4.0738 / 1.61.00 Lambda 900

0
0
3350/servo 860.8/5
0
0
UV/VIS
1
1
1
DoubleDePol,CommonBeamDepol,RBeamAtt,SBeamAtt,150mm sphere / downward view
0
0
0
0
Program
Program
3350/servo 860.8/5
3350/0.24 860.8/0.16
3350/0.24 860.8/0.16
0
3
 
 
 
0
 
860.8
319.2
860.8
Front
100
on
S:100 R:100
0
0
0
0
 
0
 
 
 
0
 
 
0
0
0
0
0
 
 
 
 
0
0


0
0
#HDR
-1
-1
#GR
nm
%R
1.0
0.0
2000.000000
-10.000000
176
8
100.934170
91.095630
#DATA
2000.000000	96.801789
1990.000000	97.094756
1980.000000	96.996415
1970.000000	97.154487
1960.000000	97.183321
1950.000000	97.194166
1940.000000	97.827324
1930.000000	97.778101
1920.000000	97.829656
1910.000000	97.484240
1900.000000	97.766176
1890.000000	97.757191
1880.000000	97.748458
1870.000000	97.662713
1860.000000	97.955270
1850.000000	97.914250
1840.000000	98.029694
1830.000000	98.024084
1820.000000	91.095630
1810.000000	92.366378
1800.000000	95.211664
1790.000000	98.395112
1780.000000	100.243617
1770.000000	100.934170
1760.000000	100.271638
1750.000000	98.946876
1740.000000	97.677285
1730.000000	97.865322
1720.000000	98.082009
1710.000000	98.371328
1700.000000	98.274947
1690.000000	98.450874
1680.000000	98.373683
1670.000000	98.457033
1660.000000	98.505617
1650.000000	98.518128
1640.000000	98.657541
1630.000000	98.709464
1620.000000	98.555036
1610.000000	98.721290
1600.000000	98.483904
1590.000000	98.644168
1580.000000	98.706604
1570.000000	98.858929
1560.000000	98.457327
1550.000000	98.274072
1540.000000	98.653638
1530.000000	98.467304
1520.000000	98.816761
1510.000000	98.512922
1500.000000	98.575295
1490.000000	98.573229
1480.000000	98.604997
1470.000000	98.588971
1460.000000	98.411782
1450.000000	98.626592
1440.000000	98.649592
1430.000000	98.638952
1420.000000	98.682269
1410.000000	98.593175
1400.000000	98.848194
1390.000000	98.665144
1380.000000	98.680458
1370.000000	98.730712
1360.000000	98.378688
1350.000000	98.669724
1340.000000	98.642153
1330.000000	98.589520
1320.000000	98.787037
1310.000000	98.763330
1300.000000	98.850827
1290.000000	98.798723
1280.000000	98.879842
1270.000000	98.704302
1260.000000	98.634370
1250.000000	98.677741
1240.000000	98.921987
1230.000000	98.846457
1220.000000	98.627425
1210.000000	98.879440
1200.000000	98.747971
1190.000000	98.886573
1180.000000	98.966630
1170.000000	98.882929
1160.000000	98.941758
1150.000000	98.800314
1140.000000	98.833300
1130.000000	98.944867
1120.000000	98.901710
1110.000000	98.831916
1100.000000	98.893787
1090.000000	98.917795
1080.000000	98.901247
1070.000000	99.056898
1060.000000	98.982942
1050.000000	98.881464
1040.000000	98.981928
1030.000000	98.912047
1020.000000	98.768577
1010.000000	99.128143
1000.000000	98.881253
990.000000	99.020860
980.000000	99.136191
970.000000	98.922407
960.000000	98.937037
950.000000	98.947662
940.000000	98.857444
930.000000	98.839314
920.000000	99.049710
910.000000	99.038773
900.000000	99.016412
890.000000	98.867917
880.000000	98.667669
870.000000	98.750185
860.000000	98.867077
850.000000	99.037671
840.000000	98.632754
830.000000	98.826680
820.000000	98.700483
810.000000	98.868657
800.000000	98.844203
790.000000	98.988562
780.000000	99.012296
770.000000	99.020995
760.000000	98.872167
750.000000	98.844220
740.000000	98.796622
730.000000	98.906304
720.000000	98.929006
710.000000	98.941080
700.000000	99.068829
690.000000	98.998395
680.000000	98.999480
670.000000	98.928869
660.000000	99.003057
650.000000	98.938681
640.000000	98.892561
630.000000	98.977013
620.000000	98.882891
610.000000	99.013266
600.000000	99.031714
590.000000	99.001428
580.000000	99.029484
570.000000	98.928357
560.000000	98.996420
550.000000	99.056110
540.000000	99.054775
530.000000	99.089149
520.000000	98.999489
510.000000	99.070463
500.000000	99.065144
490.000000	99.026175
480.000000	98.987421
470.000000	99.005553
460.000000	98.943329
450.000000	98.964450
440.000000	98.926268
430.000000	98.911628
420.000000	98.977434
410.000000	98.917541
400.000000	98.868373
390.000000	98.900872
380.000000	98.886400
370.000000	98.683833
360.000000	98.381002
350.000000	98.148222
340.000000	98.106124
330.000000	97.622275
320.000000	97.065847
310.000000	96.120742
300.000000	97.739335
290.000000	97.440836
280.000000	97.105452
270.000000	96.663383
260.000000	96.339936
250.000000	95.378180
